Folder: fds/Verification/Pyrolysis

File: birch_tga_2_exp.csv
Temp,Mass
23.85012,1
26.85012,0.9973545
29.85012,0.997191
32.85012,0.9968857
35.85012,0.9962587
38.85012,0.9953708
41.85012,0.9940136
44.85012,0.9925427
47.85012,0.9908145
50.85012,0.9890998
53.85012,0.987313
56.85012,0.985458
59.85012,0.9837288
62.85012,0.9820497
65.85012,0.9804438
68.85012,0.978998
71.85012,0.9777878
74.85012,0.9767148
77.85012,0.9757807
80.85012,0.9750794
83.85012,0.9744909
86.85012,0.9739744
89.85012,0.9735895
92.85012,0.9732565
95.85012,0.9730593
98.85012,0.9728509
101.85,0.972745
104.85,0.9726642
107.85,0.9726566
110.85,0.9726155
113.85,0.9725739
116.85,0.9725865
119.85,0.9726146
122.85,0.9726445
125.85,0.9727506
128.85,0.9727396
131.85,0.9727271
134.85,0.9727624
137.85,0.9728697
140.85,0.9728714
143.85,0.9729114
146.85,0.9729965
149.85,0.9730193
152.85,0.9729866
155.85,0.9730059
158.85,0.9729961
161.85,0.9729879
164.85,0.9729218
167.85,0.972838
170.85,0.9727693
173.85,0.9726065
176.85,0.9724546
179.85,0.9723598
182.85,0.9721191
185.85,0.9719267
188.85,0.9716844
191.85,0.9713998
194.85,0.9710801
197.85,0.9707708
200.85,0.9703788
203.85,0.9698716
206.85,0.9693905
209.85,0.9687099
212.85,0.9679784
215.85,0.9670593
218.85,0.9660265
221.85,0.9647095
224.85,0.9631918
227.85,0.9614503
230.85,0.9593029
233.85,0.9568061
236.85,0.9539078
239.85,0.9504218
242.85,0.9461884
245.85,0.9410582
248.85,0.9349493
251.85,0.9276234
254.85,0.9189874
257.85,0.9091327
260.85,0.8980877
263.85,0.8861078
266.85,0.8732487
269.85,0.8599597
272.85,0.846249
275.85,0.8324105
278.85,0.8184438
281.85,0.8043601
284.85,0.7904646
287.85,0.7764733
290.85,0.762531
293.85,0.748481
296.85,0.7341927
299.85,0.7196938
302.85,0.7048632
305.85,0.6899238
308.85,0.6746419
311.85,0.6592705
314.85,0.6437301
317.85,0.6279031
320.85,0.6114887
323.85,0.5942573
326.85,0.5753204
329.85,0.5537648
332.85,0.5285367
335.85,0.4982475
338.85,0.4617146
341.85,0.4195058
344.85,0.3748887
347.85,0.3332904
350.85,0.3006491
353.85,0.2797211
356.85,0.2684787
359.85,0.2628086
362.85,0.2593378
365.85,0.2567271
368.85,0.2543635
371.85,0.2520264
374.85,0.2497832
377.85,0.2475275
380.85,0.2453243
383.85,0.2431043
386.85,0.2408977
389.85,0.2386961
392.85,0.2365312
395.85,0.2343754
398.85,0.2322622
401.85,0.2302254
404.85,0.2282911
407.85,0.2263297
410.85,0.2244693
413.85,0.2227511
416.85,0.2210706
419.85,0.2194666
422.85,0.2179317
425.85,0.216506
428.85,0.2151427
431.85,0.2138329
434.85,0.2126078
437.85,0.2114909
440.85,0.2104495
443.85,0.2093533
446.85,0.2083191
449.85,0.2073957
452.85,0.2064365
455.85,0.2055614
458.85,0.2047373
461.85,0.2038767
464.85,0.2030638
467.85,0.2022276
470.85,0.2014527
473.85,0.2006913
476.85,0.1999989
479.85,0.1991997
482.85,0.1985572
485.85,0.197858
488.85,0.1972103
491.85,0.1965298
494.85,0.1959296
497.85,0.1953706
500.85,0.1947002
503.85,0.1941432
506.85,0.193526
509.85,0.192871
512.85,0.1923936
515.85,0.1918166
518.85,0.1912728
521.85,0.1907844
524.85,0.1902401
527.85,0.189668
530.85,0.1891368
533.85,0.1886606
536.85,0.1880689
539.85,0.1876392
542.85,0.1872684
545.85,0.1867039
548.85,0.1862897
551.85,0.1858701
554.85,0.1853835
557.85,0.1849797
560.85,0.1845404
563.85,0.1842261
566.85,0.1837874
569.85,0.1833728
572.85,0.1829832
575.85,0.1826606
578.85,0.1823042
581.85,0.181882
584.85,0.1816172
587.85,0.1812528
590.85,0.1809698
593.85,0.1806714
596.85,0.1803403
599.85,0.1800672
602.85,0.1798017
605.85,0.1795613
608.85,0.1792545
611.85,0.1790052
614.85,0.1787977
617.85,0.1786157
620.85,0.1783753
623.85,0.1781602
626.85,0.1779257
629.85,0.177761
632.85,0.1775631
635.85,0.1773969
638.85,0.1772059
641.85,0.1770766
644.85,0.1769197
647.85,0.1767381
650.85,0.1765843
653.85,0.1764214
656.85,0.1762394
659.85,0.1761524
662.85,0.1759573
665.85,0.1758504
668.85,0.1755968
671.85,0.1753675
674.85,0.1752701
677.85,0.1751285
680.85,0.1749852
683.85,0.1747964
686.85,0.1746784
689.85,0.1745382
692.85,0.1743308
695.85,0.1742478
698.85,0.1740572
701.85,0.1739323
704.85,0.1737997
707.85,0.1736312
710.85,0.1735085
713.85,0.1733684
716.85,0.1732373
719.85,0.1730619
722.85,0.1728954
725.85,0.1727545
728.85,0.1726398
731.85,0.172454
734.85,0.1722761
737.85,0.1721157
740.85,0.1720078
743.85,0.1718468
746.85,0.1716833
749.85,0.171587
752.85,0.1714456
755.85,0.1713111
758.85,0.171158
761.85,0.1710536
764.85,0.1709445
767.85,0.1707719
770.85,0.1706137
773.85,0.1705466
776.85,0.1704354
779.85,0.1703038
782.85,0.1701573
785.85,0.1700761
788.85,0.1699598
791.85,0.1698251
794.85,0.1697315
797.85,0.1696244

File: birch_tga_20_exp.csv
Temp,Mass
20.05544,1
23.05544,0.9997926
26.05544,0.9996524
29.05544,0.9994039
32.05544,0.9992849
35.05544,0.9990855
38.05544,0.9988363
41.05544,0.9987066
44.05544,0.9986136
47.05544,0.9984106
50.05544,0.9982331
53.05544,0.9979809
56.05544,0.9977038
59.05544,0.9973408
62.05544,0.9969454
65.05544,0.9966162
68.05544,0.996079
71.05544,0.9954689
74.05544,0.9948123
77.05544,0.9941869
80.05544,0.9946349
83.05544,0.992888
86.05544,0.9921359
89.05544,0.9913063
92.05544,0.9905158
95.05544,0.9897381
98.05544,0.9889123
101.055,0.9881966
104.055,0.9874822
107.055,0.9868598
110.055,0.9863416
113.055,0.9858315
116.055,0.9854169
119.055,0.9850944
122.055,0.9848447
125.055,0.984674
128.055,0.984549
131.055,0.9843978
134.055,0.984259
137.055,0.9841159
140.055,0.9840452
143.055,0.9840355
146.055,0.9839938
149.055,0.9839459
152.055,0.9838716
155.055,0.9838139
158.055,0.9837563
161.055,0.9837056
164.055,0.9836502
167.055,0.9835849
170.055,0.9835454
173.055,0.983465
176.055,0.9833592
179.055,0.9832943
182.055,0.9832386
185.055,0.9831032
188.055,0.9829622
191.055,0.9828431
194.055,0.9826781
197.055,0.9824686
200.055,0.9822769
203.055,0.9820028
206.055,0.9818187
209.055,0.9814741
212.055,0.9811955
215.055,0.9807777
218.055,0.9804679
221.055,0.9800411
224.055,0.9795868
227.055,0.9790877
230.055,0.9785541
233.055,0.9779516
236.055,0.9772622
239.055,0.9764599
242.055,0.9755144
245.055,0.9744157
248.055,0.9731571
251.055,0.9715708
254.055,0.9697477
257.055,0.9679057
260.055,0.9656434
263.055,0.9631077
266.055,0.9602041
269.055,0.956896
272.055,0.9530194
275.055,0.9470575
278.055,0.9421431
281.055,0.9354559
284.055,0.9274604
287.055,0.9186694
290.055,0.907515
293.055,0.8976687
296.055,0.884764
299.055,0.8723404
302.055,0.858811
305.055,0.8453474
308.055,0.8303837
311.055,0.8161546
314.055,0.8015828
317.055,0.7870972
320.055,0.7720817
323.055,0.7577873
326.055,0.7433508
329.055,0.7283317
332.055,0.7141262
335.055,0.699708
338.055,0.6851621
341.055,0.6706496
344.055,0.6557676
347.055,0.6408267
350.055,0.6258283
353.055,0.6097015
356.055,0.5930248
359.055,0.5751748
362.055,0.5555542
365.055,0.5335889
368.055,0.5091155
371.055,0.4821107
374.055,0.4521793
377.055,0.4204982
380.055,0.3872846
383.055,0.3541243
386.055,0.3229838
389.055,0.2957107
392.055,0.2746072
395.055,0.2592546
398.055,0.2516341
401.055,0.245079
404.055,0.2425062
407.055,0.2398578
410.055,0.237353
413.055,0.2351285
416.055,0.2329407
419.055,0.2308324
422.055,0.2287195
425.055,0.2266612
428.055,0.2247035
431.055,0.2228913
434.055,0.2210467
437.055,0.2192074
440.055,0.2174434
443.055,0.2157189
446.055,0.2140102
449.055,0.2124752
452.055,0.2110056
455.055,0.209522
458.055,0.2081826
461.055,0.2068441
464.055,0.2055931
467.055,0.2043954
470.055,0.2033026
473.055,0.2021919
476.055,0.2012239
479.055,0.2002539
482.055,0.1993226
485.055,0.1984549
488.055,0.197545
491.055,0.1967021
494.055,0.1959112
497.055,0.1951121
500.055,0.1943739
503.055,0.1936357
506.055,0.192933
509.055,0.1922011
512.055,0.1915564
515.055,0.1908494
518.055,0.1902152
521.055,0.1895176
524.055,0.1889362
527.055,0.188331
530.055,0.1877275
533.055,0.187133
536.055,0.186544
539.055,0.1859179
542.055,0.1853299
545.055,0.1847885
548.055,0.1842698
551.055,0.1837537
554.055,0.1831914
557.055,0.182691
560.055,0.1821533
563.055,0.1816591
566.055,0.1812003
569.055,0.1807224
572.055,0.1802689
575.055,0.1797863
578.055,0.1793386
581.055,0.1788955
584.055,0.178432
587.055,0.1779951
590.055,0.1775672
593.055,0.1771226
596.055,0.176698
599.055,0.1762869
602.055,0.1759122
605.055,0.1754972
608.055,0.1751051
611.055,0.1747448
614.055,0.1743937
617.055,0.174018
620.055,0.1736993
623.055,0.1733812
626.055,0.1730717
629.055,0.1727497
632.055,0.1724175
635.055,0.1721146
638.055,0.1717773
641.055,0.1714619
644.055,0.1712127
647.055,0.1709598
650.055,0.1706874
653.055,0.1704663
656.055,0.1702289
659.055,0.169974
662.055,0.1697526
665.055,0.1695943
668.055,0.1693593
671.055,0.1691448
674.055,0.1689662
677.055,0.168751
680.055,0.1685624
683.055,0.168406
686.055,0.16825
689.055,0.1680451
692.055,0.1678478
695.055,0.1677412
698.055,0.1675128
701.055,0.167408
704.055,0.1672478
707.055,0.1670998
710.055,0.1669178
713.055,0.1667659
716.055,0.1665864
719.055,0.166366
722.055,0.1662467
725.055,0.1660739
728.055,0.165959
731.055,0.1657767
734.055,0.1656935
737.055,0.1655372
740.055,0.1653656
743.055,0.1652292
746.055,0.165073
749.055,0.1649469
752.055,0.1647899
755.055,0.1646624
758.055,0.1645532
761.055,0.1644583
764.055,0.1643725
767.055,0.1642289
770.055,0.1640988
773.055,0.1640311
776.055,0.1638592
779.055,0.1637421
782.055,0.1636473
785.055,0.1634747
788.055,0.163335
791.055,0.1632178
794.055,0.1630619
796.055,0.1629628

File: tga_analysis_exact.csv
s,C,g/g,g/g,g/g,g/g,g/g,1/s,1/s,1/s,1/s,1/s,W/g,W/g
Time,Temp,Total Mass,dry wood Mass,water Mass,char Mass,ash Mass,Total MLR, dry wood MLR, water MLR, char MLR, ash MLR,MCC,DSC
0.0000e+00,2.0000e+01,1.0000e+00,9.0000e-01,1.0000e-01,0.0000e+00,0.0000e+00,0.0000e+00,0.0000e+00,0.0000e+00,0.0000e+00,0.0000e+00,0.0000e+00,0.0000e+00
9.6000e+01,2.8000e+01,9.9659e-01,9.0000e-01,9.6592e-02,4.1200e-17,0.0000e+00,4.0833e-05,0.0000e+00,0.0000e+00,4.0833e-05,0.0000e+00,0.0000e+00,2.1719e-01
1.9200e+02,3.6000e+01,9.9209e-01,9.0000e-01,9.2086e-02,4.1200e-17,0.0000e+00,5.3212e-05,0.0000e+00,0.0000e+00,5.3212e-05,0.0000e+00,0.0000e+00,2.4758e-01
2.8800e+02,4.4000e+01,9.8631e-01,9.0000e-01,8.6313e-02,4.1200e-17,0.0000e+00,6.7112e-05,0.0000e+00,0.0000e+00,6.7112e-05,0.0000e+00,0.0000e+00,2.8109e-01
3.8400e+02,5.2000e+01,9.7917e-01,9.0000e-01,7.9166e-02,1.6480e-16,-6.1800e-18,8.1632e-05,0.0000e+00,2.2870e-32,8.1632e-05,0.0000e+00,0.0000e+00,3.1525e-01
4.8000e+02,6.0000e+01,9.7065e-01,9.0000e-01,7.0651e-02,2.0600e-16,-6.1800e-18,9.5319e-05,0.0000e+00,0.0000e+00,9.5319e-05,0.0000e+00,0.0000e+00,3.4628e-01
5.7600e+02,6.8000e+01,9.6094e-01,9.0000e-01,6.0941e-02,2.4720e-16,-6.1800e-18,1.0624e-04,0.0000e+00,0.0000e+00,1.0624e-04,0.0000e+00,0.0000e+00,3.6928e-01
6.7200e+02,7.6000e+01,9.5040e-01,9.0000e-01,5.0404e-02,4.1200e-16,-6.1800e-18,1.1222e-04,0.0000e+00,0.0000e+00,1.1222e-04,0.0000e+00,0.0000e+00,3.7903e-01
7.6800e+02,8.4000e+01,9.3961e-01,9.0000e-01,3.9610e-02,5.3560e-16,-6.1800e-18,1.1142e-04,0.0000e+00,0.0000e+00,1.1142e-04,0.0000e+00,0.0000e+00,3.7127e-01
8.6400e+02,9.2000e+01,9.2926e-01,9.0000e-01,2.9263e-02,1.4832e-15,-6.1800e-18,1.0295e-04,1.0300e-16,-4.1200e-17,1.0295e-04,0.0000e+00,9.2627e-13,3.4440e-01
9.6000e+02,1.0000e+02,9.2008e-01,9.0000e-01,2.0080e-02,1.0135e-14,-6.1800e-18,8.7523e-05,5.1500e-16,-2.0600e-16,8.7523e-05,0.0000e+00,4.6314e-12,3.0083e-01
1.0560e+03,1.0800e+02,9.1262e-01,9.0000e-01,1.2623e-02,6.2582e-14,-6.1800e-18,6.7569e-05,2.8840e-15,-1.1536e-15,6.7569e-05,0.0000e+00,2.5936e-11,2.4715e-01
1.1520e+03,1.1600e+02,9.0716e-01,9.0000e-01,7.1576e-03,3.5835e-13,-6.1800e-18,4.6667e-05,1.5862e-14,-6.3448e-15,4.6667e-05,0.0000e+00,1.4265e-10,1.9254e-01
1.2480e+03,1.2400e+02,9.0360e-01,9.0000e-01,3.5980e-03,1.9146e-12,-6.1800e-18,2.8354e-05,8.1163e-14,-3.2465e-14,2.8354e-05,0.0000e+00,7.2990e-10,1.4566e-01
1.3440e+03,1.3200e+02,9.0157e-01,9.0000e-01,1.5728e-03,9.5842e-12,-6.1800e-18,1.4872e-05,3.9098e-13,-1.5639e-13,1.4872e-05,0.0000e+00,3.5161e-09,1.1169e-01
1.4400e+03,1.4000e+02,9.0059e-01,9.0000e-01,5.8519e-04,4.5107e-11,-6.1800e-18,6.5954e-06,1.7710e-12,-7.0839e-13,6.5954e-06,0.0000e+00,1.5926e-08,9.1118e-02
1.5360e+03,1.4800e+02,9.0018e-01,9.0000e-01,1.8102e-04,2.0031e-10,-6.1800e-18,2.4163e-06,7.5743e-12,-3.0297e-12,2.4163e-06,0.0000e+00,6.8115e-08,8.0851e-02
1.6320e+03,1.5600e+02,9.0005e-01,9.0000e-01,4.5371e-05,8.4198e-10,-6.1800e-18,7.1302e-07,3.0685e-11,-1.2274e-11,7.1300e-07,0.0000e+00,2.7595e-07,7.6711e-02
1.7280e+03,1.6400e+02,9.0001e-01,9.0000e-01,8.9581e-06,3.3602e-09,-6.1800e-18,1.6488e-07,1.1811e-10,-4.7242e-11,1.6481e-07,0.0000e+00,1.0621e-06,7.5392e-02
1.8240e+03,1.7200e+02,9.0000e-01,9.0000e-01,1.3514e-06,1.2768e-08,-6.1800e-18,2.9215e-08,4.3308e-10,-1.7323e-10,2.8956e-08,0.0000e+00,3.8947e-06,7.5069e-02
1.9200e+03,1.8000e+02,9.0000e-01,9.0000e-01,1.5068e-07,4.6307e-08,-6.1800e-18,4.6518e-09,1.5169e-09,-6.0674e-10,3.7417e-09,0.0000e+00,1.3641e-05,7.5010e-02
2.0160e+03,1.8800e+02,9.0000e-01,9.0000e-01,1.1982e-08,1.6070e-07,-6.1800e-18,3.3952e-09,5.0866e-09,-2.0346e-09,3.4324e-10,0.0000e+00,4.5744e-05,7.5006e-02
2.1120e+03,1.9600e+02,9.0000e-01,9.0000e-01,6.5392e-10,5.3484e-07,-6.1800e-18,9.8421e-09,1.6368e-08,-6.5470e-09,2.1516e-11,0.0000e+00,1.4719e-04,7.5015e-02
2.2080e+03,2.0400e+02,9.0000e-01,9.0000e-01,2.3500e-11,1.7106e-06,-6.1800e-18,3.0387e-08,5.0643e-08,-2.0257e-08,8.8452e-13,0.0000e+00,4.5543e-04,7.5048e-02
2.3040e+03,2.1200e+02,8.9999e-01,8.9999e-01,5.3210e-13,5.2682e-06,-6.1800e-18,9.0578e-08,1.5096e-07,-6.0385e-08,2.2823e-14,0.0000e+00,1.3576e-03,7.5143e-02
2.4000e+03,2.2000e+02,8.9998e-01,8.9996e-01,7.2402e-15,1.5651e-05,-6.1800e-18,2.6060e-07,4.3433e-07,-1.7373e-07,3.5264e-16,0.0000e+00,3.9059e-03,7.5412e-02
2.4960e+03,2.2800e+02,8.9993e-01,8.9989e-01,5.6296e-17,4.4929e-05,-6.1800e-18,7.2484e-07,1.2081e-06,-4.8323e-07,3.1031e-18,0.0000e+00,1.0864e-02,7.6151e-02
2.5920e+03,2.3600e+02,8.9981e-01,8.9969e-01,2.3707e-19,1.2482e-04,-6.1274e-18,1.9521e-06,3.2534e-06,-1.3014e-06,1.4743e-20,-4.1141e-21,2.9258e-02,7.8111e-02
2.6880e+03,2.4400e+02,8.9950e-01,8.9916e-01,5.1073e-22,3.3610e-04,-4.8966e-18,5.0964e-06,8.4940e-06,-3.3976e-06,3.5730e-23,-3.8784e-20,7.6387e-02,8.3155e-02
2.7840e+03,2.5200e+02,8.9868e-01,8.9780e-01,5.2979e-25,8.7806e-04,1.4109e-17,1.2910e-05,2.1517e-05,-8.6068e-06,4.1581e-26,-5.6469e-19,1.9350e-01,9.5739e-02
2.8800e+03,2.6000e+02,8.9666e-01,8.9443e-01,2.4815e-28,2.2272e-03,2.9289e-16,3.1732e-05,5.2887e-05,-2.1155e-05,2.1795e-29,-8.1191e-18,4.7561e-01,1.2617e-01
2.9760e+03,2.6800e+02,8.9178e-01,8.8629e-01,4.9027e-32,5.4833e-03,4.0563e-15,7.5535e-05,1.2589e-04,-5.0357e-05,4.8074e-33,-1.0731e-16,1.1321e+00,1.9729e-01
3.0720e+03,2.7600e+02,8.8039e-01,8.6732e-01,3.8011e-36,1.3073e-02,5.0946e-14,1.7311e-04,2.8852e-04,-1.1541e-04,4.1521e-37,-1.3044e-15,2.5947e+00,3.5633e-01
3.1680e+03,2.8400e+02,8.5503e-01,8.2505e-01,1.0713e-40,2.9982e-02,5.8857e-13,3.7644e-04,6.2740e-04,-2.5096e-04,1.3011e-41,-1.4555e-14,5.6422e+00,6.8905e-01
3.2640e+03,2.9200e+02,8.0227e-01,7.3712e-01,1.0121e-45,6.5152e-02,6.2054e-12,7.5142e-04,1.2524e-03,-5.0095e-04,1.3642e-46,-1.4720e-13,1.1263e+01,1.3050e+00
3.3600e+03,3.0000e+02,7.0496e-01,5.7493e-01,2.9418e-51,1.3003e-01,5.8466e-11,1.2818e-03,2.1363e-03,-8.5453e-04,4.3930e-52,-1.3104e-12,1.9212e+01,2.1792e+00
3.4560e+03,3.0800e+02,5.6171e-01,3.3618e-01,2.4015e-57,2.2553e-01,4.7296e-10,1.6079e-03,2.6799e-03,-1.0719e-03,3.9674e-58,-9.7361e-12,2.4100e+01,2.7173e+00
3.5520e+03,3.1600e+02,4.2473e-01,1.0788e-01,0.0000e+00,3.1685e-01,3.1025e-09,1.0893e-03,1.8155e-03,-7.2619e-04,0.0000e+00,-5.6363e-11,1.6327e+01,1.8517e+00
3.6480e+03,3.2400e+02,3.6607e-01,1.0109e-02,0.0000e+00,3.5596e-01,1.5934e-08,2.1319e-04,3.5532e-04,-1.4212e-04,0.0000e+00,-2.5107e-10,3.1954e+00,3.8738e-01
3.7440e+03,3.3200e+02,3.6005e-01,7.7528e-05,0.0000e+00,3.5997e-01,6.7622e-08,3.4182e-06,5.6878e-06,-2.2687e-06,0.0000e+00,-9.6933e-10,5.1233e-02,3.5745e-02
3.8400e+03,3.4000e+02,3.6000e-01,3.6190e-09,0.0000e+00,3.6000e-01,2.6105e-07,2.0583e-08,5.6530e-10,2.3590e-08,0.0000e+00,-3.5724e-09,3.0851e-04,3.0023e-02
3.9360e+03,3.4800e+02,3.5999e-01,3.8968e-18,0.0000e+00,3.5999e-01,9.5932e-07,7.2136e-08,1.3862e-18,8.4865e-08,0.0000e+00,-1.2730e-08,1.0812e-03,3.0080e-02
4.0320e+03,3.5600e+02,3.5998e-01,1.0550e-37,0.0000e+00,3.5998e-01,3.3989e-06,2.4886e-07,1.0596e-37,2.9278e-07,0.0000e+00,-4.3917e-08,3.7300e-03,3.0276e-02
4.1280e+03,3.6400e+02,3.5993e-01,0.0000e+00,0.0000e+00,3.5992e-01,1.1657e-05,8.3217e-07,0.0000e+00,9.7902e-07,0.0000e+00,-1.4685e-07,1.2473e-02,3.0928e-02
4.2240e+03,3.7200e+02,3.5978e-01,0.0000e+00,0.0000e+00,3.5974e-01,3.8771e-05,2.6997e-06,0.0000e+00,3.1761e-06,0.0000e+00,-4.7641e-07,4.0464e-02,3.3029e-02
4.3200e+03,3.8000e+02,3.5929e-01,0.0000e+00,0.0000e+00,3.5917e-01,1.2517e-04,8.4998e-06,0.0000e+00,9.9998e-06,0.0000e+00,-1.5000e-06,1.2740e-01,3.9591e-02
4.4160e+03,3.8800e+02,3.5778e-01,0.0000e+00,0.0000e+00,3.5739e-01,3.9224e-04,2.5941e-05,0.0000e+00,3.0519e-05,0.0000e+00,-4.5779e-06,3.8882e-01,5.9438e-02
4.5120e+03,3.9600e+02,3.5325e-01,0.0000e+00,0.0000e+00,3.5206e-01,1.1903e-03,7.6318e-05,0.0000e+00,8.9785e-05,0.0000e+00,-1.3468e-05,1.1439e+00,1.1709e-01
4.6080e+03,4.0400e+02,3.4034e-01,0.0000e+00,0.0000e+00,3.3687e-01,3.4691e-03,2.1258e-04,0.0000e+00,2.5010e-04,0.0000e+00,-3.7515e-05,3.1863e+00,2.7391e-01
4.7040e+03,4.1200e+02,3.0631e-01,0.0000e+00,0.0000e+00,2.9684e-01,9.4743e-03,5.3234e-04,0.0000e+00,6.2629e-04,0.0000e+00,-9.3943e-05,7.9789e+00,6.4391e-01
4.8000e+03,4.2000e+02,2.3102e-01,0.0000e+00,0.0000e+00,2.0825e-01,2.2762e-02,1.0386e-03,0.0000e+00,1.2219e-03,0.0000e+00,-1.8328e-04,1.5567e+01,1.2325e+00
4.8960e+03,4.2800e+02,1.2098e-01,0.0000e+00,0.0000e+00,7.8795e-02,4.2181e-02,1.0744e-03,0.0000e+00,1.2640e-03,0.0000e+00,-1.8961e-04,1.6104e+01,1.2723e+00
4.9920e+03,4.3600e+02,5.8875e-02,0.0000e+00,0.0000e+00,5.7351e-03,5.3140e-02,2.1259e-04,0.0000e+00,2.5011e-04,0.0000e+00,-3.7516e-05,3.1864e+00,2.5605e-01
5.0880e+03,4.4400e+02,5.4004e-02,0.0000e+00,0.0000e+00,5.1439e-06,5.3999e-02,5.3061e-07,0.0000e+00,6.2425e-07,0.0000e+00,-9.3637e-08,7.9530e-03,5.1307e-03
5.1840e+03,4.5200e+02,5.4000e-02,0.0000e+00,0.0000e+00,2.3739e-14,5.4000e-02,7.6343e-15,0.0000e+00,8.9797e-15,0.0000e+00,-1.3454e-15,1.1440e-10,4.5000e-03
5.2800e+03,4.6000e+02,5.4000e-02,0.0000e+00,0.0000e+00,2.2922e-40,5.4000e-02,4.9161e-40,0.0000e+00,4.9161e-40,0.0000e+00,0.0000e+00,6.2632e-36,4.5000e-03
5.3760e+03,4.6800e+02,5.4000e-02,0.0000e+00,0.0000e+00,0.0000e+00,5.4000e-02,0.0000e+00,0.0000e+00,0.0000e+00,0.0000e+00,0.0000e+00,0.0000e+00,4.5000e-03
5.4720e+03,4.7600e+02,5.4000e-02,0.0000e+00,0.0000e+00,0.0000e+00,5.4000e-02,0.0000e+00,0.0000e+00,0.0000e+00,0.0000e+00,0.0000e+00,0.0000e+00,4.5000e-03
5.5680e+03,4.8400e+02,5.4000e-02,0.0000e+00,0.0000e+00,0.0000e+00,5.4000e-02,0.0000e+00,0.0000e+00,0.0000e+00,0.0000e+00,0.0000e+00,0.0000e+00,4.5000e-03
5.6640e+03,4.9200e+02,5.4000e-02,0.0000e+00,0.0000e+00,0.0000e+00,5.4000e-02,0.0000e+00,0.0000e+00,0.0000e+00,0.0000e+00,0.0000e+00,0.0000e+00,4.5000e-03
5.7600e+03,5.0000e+02,5.4000e-02,0.0000e+00,0.0000e+00,0.0000e+00,5.4000e-02,0.0000e+00,0.0000e+00,0.0000e+00,0.0000e+00,0.0000e+00,0.0000e+00,4.5000e-03
5.8560e+03,5.0800e+02,5.4000e-02,0.0000e+00,0.0000e+00,0.0000e+00,5.4000e-02,0.0000e+00,0.0000e+00,0.0000e+00,0.0000e+00,0.0000e+00,0.0000e+00,4.5000e-03
5.9520e+03,5.1600e+02,5.4000e-02,0.0000e+00,0.0000e+00,0.0000e+00,5.4000e-02,0.0000e+00,0.0000e+00,0.0000e+00,0.0000e+00,0.0000e+00,0.0000e+00,4.5000e-03
6.0480e+03,5.2400e+02,5.4000e-02,0.0000e+00,0.0000e+00,0.0000e+00,5.4000e-02,0.0000e+00,0.0000e+00,0.0000e+00,0.0000e+00,0.0000e+00,0.0000e+00,4.5000e-03
6.0840e+03,5.2700e+02,5.4000e-02,0.0000e+00,0.0000e+00,0.0000e+00,5.4000e-02,0.0000e+00,0.0000e+00,0.0000e+00,0.0000e+00,0.0000e+00,0.0000e+00,4.5000e-03